omega=0.3;gamma=3.16;
#time Strain(-) Stress(Pa)
0.082	0.07802	8.5946
0.445	0.42041	10.804
0.814	0.7637	11.736
1.187	1.1018	11.959
1.559	1.4245	11.807
1.924	1.7241	11.419
2.292	2.0053	10.893
2.659	2.262	10.246
3.026	2.4903	9.47
3.392	2.6885	8.5979
3.759	2.8547	7.5663
4.116	2.9834	6.4186
4.474	3.0779	5.1834
4.801	3.1331	3.8262
5.531	3.1476	2.3781
5.735	3.1246	0.84733
6.073	3.0609	-0.7358
6.433	2.9583	-2.3345
6.798	2.8195	-3.9209
7.160	2.648	-5.4154
7.525	2.444	-6.7915
7.895	2.2071	-8.038
8.257	1.9488	-9.1269
8.625	1.6631	-10.047
8.998	1.3526	-10.805
9.367	1.0285	-11.399
9.735	0.6926	-11.832
10.104	0.34847	-12.135
10.473	-0.0006693	-12.297
10.842	-0.3504	-12.33
11.212	-0.6955	-12.254
11.586	-1.0362	-12.07
11.960	-1.3639	-11.775
12.330	-1.672	-11.376
12.698	-1.9572	-10.868
13.068	-2.2194	-10.249
13.435	-2.4534	-9.5065
13.804	-2.6584	-8.6554
14.175	-2.8318	-7.6656
14.546	-2.9698	-6.5644
14.906	-3.069	-5.3467
15.238	-3.1287	-4.0254
15.494	-3.1535	-2.6036
16.108	-3.1373	-1.1104
16.441	-3.0839	0.45404
16.807	-2.9898	2.0644
17.175	-2.8588	3.6475
17.542	-2.6936	5.1497
17.908	-2.4963	6.5451
18.276	-2.2674	7.8205
18.645	-2.0108	8.9425
19.014	-1.7293	9.8978
19.388	-1.4221	10.692
19.763	-1.0963	11.32
20.132	-0.7622	11.787
20.501	-0.4184	12.118
20.871	-0.0692	12.316
21.240	0.28042	12.392
21.609	0.6264	12.351
21.982	0.96851	12.183
22.356	1.2992	11.918
22.720	1.6052	11.542
23.088	1.8952	11.063
23.456	2.162	10.471
23.822	2.4017	9.7609
24.188	2.6123	8.9323
24.557	2.7927	7.9716
24.923	2.9379	6.8899
25.276	3.0446	5.6964
25.621	3.1156	4.3903
25.862	3.1456	2.9727
26.571	3.1383	1.4766
26.870	3.0925	-0.0929
27.237	3.0024	-1.6995
27.593	2.8802	-3.2935
27.960	2.7202	-4.8188
28.324	2.5283	-6.2487
28.687	2.3078	-7.5436
29.053	2.0572	-8.7011
29.420	1.7812	-9.6878
29.794	1.478	-10.513
30.165	1.1582	-11.185
30.531	0.82945	-11.671
30.899	0.48802	-12.016
31.268	0.14011	-12.235
31.638	-0.2099	-12.322
32.007	-0.5575	-12.296
32.381	-0.9023	-12.155
32.755	-1.2356	-11.905
33.125	-1.5498	-11.543
33.495	-1.8458	-11.081
33.864	-2.118	-10.509
34.232	-2.363	-9.8165
34.600	-2.5799	-9.0214
34.971	-2.7667	-8.0763
35.343	-2.9196	-7.0213
35.706	-3.0337	-5.8571
36.060	-3.1103	-4.5723
36.366	-3.1484	-3.187
36.371	-3.1488	-1.7196
37.249	-3.1094	-0.1834
37.604	-3.0319	1.422
37.972	-2.9156	3.0165
38.338	-2.7642	4.561
38.704	-2.5796	6.0005
39.073	-2.3623	7.3326
39.441	-2.1172	8.5134
39.809	-1.8458	9.5341
40.183	-1.5471	10.402
40.558	-1.2272	11.096
40.927	-0.8981	11.625
41.296	-0.5578	12.012
41.666	-0.2103	12.261
42.035	0.13976	12.382
42.405	0.4879	12.383
42.778	0.83384	12.274
43.152	1.1697	12.048
43.517	1.4837	11.723
43.883	1.7803	11.276
44.251	2.0569	10.725
44.618	2.3084	10.071
44.984	2.5309	9.285
45.354	2.7247	8.3822
45.721	2.8841	7.3341
46.069	3.003	6.1911
46.426	3.091	4.9258
46.729	3.1378	3.5537
46.808	3.1458	2.0892
47.689	3.1147	0.54229
48.041	3.0411	-1.0659
48.394	2.9333	-2.6608
48.758	2.788	-4.2164
49.120	2.6102	-5.6888
49.484	2.4006	-7.0392
49.849	2.1613	-8.2599
50.216	1.8954	-9.3144
50.589	1.6013	-10.205
50.962	1.287	-10.934
51.326	0.96456	-11.492
51.695	0.62625	-11.893
52.063	0.28067	-12.162
52.432	-0.0688	-12.309
52.802	-0.4181	-12.32
53.176	-0.7663	-12.219
53.550	-1.1047	-12.007
53.919	-1.425	-11.697
54.290	-1.7293	-11.279
54.659	-2.0108	-10.743
55.027	-2.2673	-10.109
55.396	-2.4964	-9.3424
55.768	-2.6965	-8.4605
56.139	-2.8629	-7.4508
56.503	-2.9918	-6.3388
56.862	-3.0838	-5.1001
57.186	-3.1362	-3.7554
57.813	-3.1533	-2.3159
58.063	-3.129	-0.8103
58.403	-3.0677	0.78331
58.771	-2.9657	2.3882
59.135	-2.8291	3.9494
59.502	-2.6574	5.433
59.868	-2.4537	6.8104
60.236	-2.2196	8.0524
60.606	-1.957	9.1424
60.979	-1.6678	10.073
61.353	-1.3563	10.833
61.723	-1.0322	11.428
62.092	-0.6959	11.868
62.461	-0.3509	12.168
62.831	-0.001	12.341
63.200	0.34814	12.395
63.574	0.6976	12.332
63.947	1.0378	12.15
64.315	1.3601	11.857
64.680	1.6634	11.454
65.048	1.9494	10.953
65.415	2.2108	10.338
65.780	2.4447	9.6071
66.151	2.6517	8.7504
66.519	2.8248	7.7567
66.880	2.9616	6.6717
67.233	3.0613	5.4527
67.566	3.1242	4.1177
67.764	3.1469	2.69
68.512	3.132	1.1768
68.830	3.0778	-0.4189
69.196	2.9807	-2.0322
69.554	2.8512	-3.5969
69.918	2.6858	-5.1002
70.282	2.488	-6.5081
70.645	2.2615	-7.7793
71.011	2.0059	-8.8954
71.384	1.721	-9.8672
71.758	1.4137	-10.661
72.124	1.0957	-11.277
72.490	0.76358	-11.745
72.859	0.42068	-12.063
73.228	0.07209	-12.257
73.597	-0.2779	-12.321
73.972	-0.629	-12.266
74.346	-0.972	-12.106
74.715	-1.2979	-11.832
75.085	-1.6091	-11.459
75.454	-1.9002	-10.972
75.823	-2.1671	-10.375
76.191	-2.4074	-9.6605
76.563	-2.6206	-8.8263
76.933	-2.8001	-7.8584
77.302	-2.9446	-6.7929
77.663	-3.0514	-5.6044
78.010	-3.1201	-4.3034
78.780	-3.1518	-2.898
78.882	-3.1434	-1.4157
79.208	-3.0967	0.15128
79.568	-3.0109	1.7584
79.931	-2.8889	3.3281
80.297	-2.7312	4.8492
80.665	-2.5395	6.2698
81.033	-2.3167	7.5776
81.400	-2.066	8.7339
81.773	-1.7861	9.7263
82.148	-1.4829	10.559
82.518	-1.164	11.206
82.887	-0.8323	11.706
83.256	-0.4905	12.063
83.626	-0.1422	12.289
83.995	0.20778	12.39
84.369	0.55975	12.364
84.743	0.90404	12.23
85.112	1.233	11.989
85.477	1.5434	11.642
85.843	1.8366	11.177
86.210	2.1082	10.597
86.578	2.3546	9.9192
86.949	2.574	9.0996
87.319	2.7614	8.1661
87.681	2.9115	7.1209
88.029	3.0237	5.9576
88.388	3.1048	4.672
88.668	3.1432	3.2746
89.349	3.1438	1.7925
89.633	3.1052	0.21216
89.999	3.0224	-1.3865
90.349	2.9091	-2.9637
90.715	2.7565	-4.5067
91.077	2.5727	-5.9557
91.443	2.356	-7.2856
91.808	2.1119	-8.471
92.181	1.8364	-9.5046
92.553	1.5383	-10.367
92.920	1.2253	-11.049
93.285	0.89966	-11.572
93.654	0.55967	-11.951
94.023	0.21284	-12.189
94.392	-0.137	-12.31
94.767	-0.4901	-12.302
95.141	-0.8369	-12.181
95.510	-1.1683	-11.952
95.879	-1.4858	-11.615
96.250	-1.7861	-11.177
96.618	-2.0624	-10.628
96.986	-2.3135	-9.9649
97.358	-2.539	-9.1736
97.731	-2.7329	-8.2586
98.096	-2.8901	-7.2403
98.459	-3.0119	-6.1031
98.815	-3.0967	-4.8396
99.127	-3.1419	-3.4747
99.238	-3.1514	-2.0208
100.019	-3.1193	-0.4839
100.368	-3.0494	1.1181
100.729	-2.9421	2.6964
101.096	-2.7976	4.2465
101.461	-2.62	5.7116
101.828	-2.4102	7.064
102.196	-2.1704	8.2734
102.570	-1.8998	9.3465
102.943	-1.6054	10.241
103.313	-1.294	10.958
103.683	-0.9675	11.521
104.051	-0.6293	11.931
104.421	-0.283	12.204
104.791	0.06726	12.352
105.165	0.42045	12.375
105.538	0.76836	12.292
105.907	1.1018	12.097
106.274	1.4207	11.788
106.640	1.721	11.363
107.008	2.0025	10.84
107.375	2.2593	10.207
107.745	2.4899	9.433
108.116	2.6908	8.5561
108.480	2.8552	7.5477
108.840	2.9845	6.4355
109.200	3.0792	5.1957
109.521	3.1332	3.8405
109.663	3.1478	2.3906
110.456	3.1245	0.8429
110.790	3.0615	-0.7549
111.148	2.9601	-2.332
111.512	2.822	-3.8907
111.875	2.6505	-5.3777
112.240	2.4465	-6.7674
112.604	2.2144	-8.0131
112.975	1.9496	-9.1165
113.349	1.6595	-10.053
113.717	1.3526	-10.807
114.082	1.0325	-11.388
114.450	0.69754	-11.828
114.818	0.3533	-12.125
115.187	0.00404	-12.29
115.562	-0.3503	-12.327
